{"data":[{"rt":2551.899999976158,"stimulus":"<DIV align='left'><div>&nbsp;</div><div>Please consider this information carefully before deciding whether to participate in this research.</div><div>&nbsp;</div><div>The purpose of this research is to examine which factors influence social judgment and decision-</div><div>making. You will be asked to make judgements about individuals and actions in social scenarios.</div><div>We are simply interested in your judgement. The study will take less than 1 hour to complete,</div><div>and you will receive less than $20 on Amazon Mechanical Turk. Your compensation and time</div><div>commitment are specified in the study description. There are no anticipated risks associated with</div><div>participating in this study. The effects of participating should be comparable to those you would</div><div>ordinarily experience from viewing a computer monitor and using a mouse or keyboard for a</div><div>similar amount of time. At the end of the study, we will provide an explanation of the questions</div><div>that motivate this line of research and will describe the potential implications.</div><div>&nbsp;</div><div>Your participation in this study is completely voluntary and you may refuse to participate or you</div><div>may choose to withdraw at any time without penalty or loss of benefits to you which are</div><div>otherwise entitled. Your participation in this study will remain confidential. No personally</div><div>identifiable information will be associated with your data. Also, all analyses of the data will be</div><div>averaged across all the participants, so your individual responses will never be specifically</div><div>analyzed.</div><div>&nbsp;</div><div>If you have questions or concerns about your participation or payment, or want to request a</div><div>summary of research findings, please contact Dr. Jonathan Phillips at</div><div><a href=mailto:Jonathan.S.Phillips@dartmouth.edu>Jonathan.S.Phillips@dartmouth.edu</a>.</div><div>&nbsp;</div><div>Please save a copy of this form for your records.</div><div>&nbsp;</div></DIV><div>Agreement:</div><DIV align='left'><div>The nature and purpose of this research have been sufficiently explained and I agree to</div><div>participate in this study. I understand that I am free to withdraw at any time without incurring</div><div>any penalty. Please consent by clicking the button below to continue. Otherwise, please exit the</div><div>study at any time.</div><div>&nbsp;</div></DIV>","button_pressed":"0","trial_type":"html-button-response","trial_index":0,"time_elapsed":2557,"internal_node_id":"0.0-0.0","turk_code":"qz15gxsuhdnt"},{"rt":488.4000000357628,"stimulus":"<div class='center-content'><br><br><br><br>Welcome to the HIT. Press any key to begin.","key_press":32,"trial_type":"html-keyboard-response","trial_index":1,"time_elapsed":3047,"internal_node_id":"0.0-1.0","turk_code":"qz15gxsuhdnt"},{"rt":1788.0999999642372,"responses":"{\"subject_id\":\"id\"}","trial_type":"survey-text","trial_index":2,"time_elapsed":4840,"internal_node_id":"0.0-2.0","turk_code":"qz15gxsuhdnt"},{"rt":2929.800000011921,"stimulus":"In this experiment, you will be asked to list zoo animals that fit a certain description.<br><br> You will have 30 seconds per round to give answers. Please work as fast as you can, listing zoo animals that you think fit the description as quickly as possible.<br><br> Type one zoo animal per text box, and then press enter.<br><br>Press any key to begin.","key_press":32,"trial_type":"html-keyboard-response","trial_index":3,"time_elapsed":7772,"internal_node_id":"0.0-3.0","turk_code":"qz15gxsuhdnt"},{"trial_type":"call-function","trial_index":4,"time_elapsed":7774,"internal_node_id":"0.0-4.0","turk_code":"qz15gxsuhdnt"},{"rt":2968.900000035763,"responses":"{\"cool\":\"giraffe\"}","trial_type":"survey-text","trial_index":5,"time_elapsed":10747,"internal_node_id":"0.0-5.0-0.0","turk_code":"qz15gxsuhdnt"},{"rt":1324.1000000238419,"responses":"{\"cool\":\"zebra\"}","trial_type":"survey-text","trial_index":6,"time_elapsed":12074,"internal_node_id":"0.0-5.1-0.1","turk_code":"qz15gxsuhdnt"},{"rt":2002.7000000476837,"responses":"{\"cool\":\"cool\"}","trial_type":"survey-text","trial_index":7,"time_elapsed":14080,"internal_node_id":"0.0-5.2-0.2","turk_code":"qz15gxsuhdnt"},{"rt":1443.699999988079,"responses":"{\"cool\":\"cool\"}","trial_type":"survey-text","trial_index":8,"time_elapsed":15528,"internal_node_id":"0.0-5.3-0.3","turk_code":"qz15gxsuhdnt"},{"rt":1429.800000011921,"responses":"{\"cool\":\"cool\"}","trial_type":"survey-text","trial_index":9,"time_elapsed":16960,"internal_node_id":"0.0-5.4-0.4","turk_code":"qz15gxsuhdnt"},{"trial_type":"survey-text","trial_index":10,"time_elapsed":37776,"internal_node_id":"0.0-5.5-0.5","turk_code":"qz15gxsuhdnt"},{"rt":1175.4000000357628,"stimulus":"The round has finished!<br><br> Please continue to list zoo animals as quickly as possible, pressing enter after each response. <br><br> Press the space bar when you're ready to continue.","key_press":32,"trial_type":"html-keyboard-response","trial_index":11,"time_elapsed":38954,"internal_node_id":"0.0-6.0","turk_code":"qz15gxsuhdnt"},{"trial_type":"call-function","trial_index":12,"time_elapsed":38955,"internal_node_id":"0.0-7.0","turk_code":"qz15gxsuhdnt"},{"rt":2764.5,"responses":"{\"has large feet relative to its body size\":\"flamingo\"}","trial_type":"survey-text","trial_index":13,"time_elapsed":41723,"internal_node_id":"0.0-8.0-0.0","turk_code":"qz15gxsuhdnt"},{"rt":2627.300000011921,"responses":"{\"has large feet relative to its body size\":\"kangaroo\"}","trial_type":"survey-text","trial_index":14,"time_elapsed":44353,"internal_node_id":"0.0-8.1-0.1","turk_code":"qz15gxsuhdnt"},{"rt":2734.5,"responses":"{\"has large feet relative to its body size\":\"large feet\"}","trial_type":"survey-text","trial_index":15,"time_elapsed":47091,"internal_node_id":"0.0-8.2-0.2","turk_code":"qz15gxsuhdnt"},{"rt":4434.100000023842,"responses":"{\"has large feet relative to its body size\":\"large feet\"}","trial_type":"survey-text","trial_index":16,"time_elapsed":51529,"internal_node_id":"0.0-8.3-0.3","turk_code":"qz15gxsuhdnt"},{"trial_type":"survey-text","trial_index":17,"time_elapsed":68959,"internal_node_id":"0.0-8.4-0.4","turk_code":"qz15gxsuhdnt"},{"rt":22194.600000023842,"stimulus":"The round has finished!<br><br> Please continue to list zoo animals as quickly as possible, pressing enter after each response. <br><br> Press the space bar when you're ready to continue.","key_press":32,"trial_type":"html-keyboard-response","trial_index":18,"time_elapsed":91155,"internal_node_id":"0.0-9.0","turk_code":"qz15gxsuhdnt"},{"trial_type":"call-function","trial_index":19,"time_elapsed":91156,"internal_node_id":"0.0-10.0","turk_code":"qz15gxsuhdnt"},{"rt":2613.699999988079,"responses":"{\"quiet\":\"rabbit\"}","trial_type":"survey-text","trial_index":20,"time_elapsed":93773,"internal_node_id":"0.0-11.0-0.0","turk_code":"qz15gxsuhdnt"},{"rt":1774.6000000238419,"responses":"{\"quiet\":\"giraffe\"}","trial_type":"survey-text","trial_index":21,"time_elapsed":95551,"internal_node_id":"0.0-11.1-0.1","turk_code":"qz15gxsuhdnt"},{"rt":2222.199999988079,"responses":"{\"quiet\":\"bunny\"}","trial_type":"survey-text","trial_index":22,"time_elapsed":97777,"internal_node_id":"0.0-11.2-0.2","turk_code":"qz15gxsuhdnt"},{"rt":1936.9000000357628,"responses":"{\"quiet\":\"quiet\"}","trial_type":"survey-text","trial_index":23,"time_elapsed":99717,"internal_node_id":"0.0-11.3-0.3","turk_code":"qz15gxsuhdnt"},{"rt":1795.800000011921,"responses":"{\"quiet\":\"quiet\"}","trial_type":"survey-text","trial_index":24,"time_elapsed":101516,"internal_node_id":"0.0-11.4-0.4","turk_code":"qz15gxsuhdnt"},{"trial_type":"survey-text","trial_index":25,"time_elapsed":121159,"internal_node_id":"0.0-11.5-0.5","turk_code":"qz15gxsuhdnt"},{"rt":2838.600000023842,"stimulus":"The round has finished!<br><br> Please continue to list zoo animals as quickly as possible, pressing enter after each response. <br><br> Press the space bar when you're ready to continue.","key_press":32,"trial_type":"html-keyboard-response","trial_index":26,"time_elapsed":124000,"internal_node_id":"0.0-12.0","turk_code":"qz15gxsuhdnt"},{"trial_type":"call-function","trial_index":27,"time_elapsed":124002,"internal_node_id":"0.0-13.0","turk_code":"qz15gxsuhdnt"},{"rt":3380,"responses":"{\"large\":\"shark\"}","trial_type":"survey-text","trial_index":28,"time_elapsed":127385,"internal_node_id":"0.0-14.0-0.0","turk_code":"qz15gxsuhdnt"},{"rt":3188,"responses":"{\"large\":\"whale\"}","trial_type":"survey-text","trial_index":29,"time_elapsed":130576,"internal_node_id":"0.0-14.1-0.1","turk_code":"qz15gxsuhdnt"},{"rt":1511.9000000357628,"responses":"{\"large\":\"elephant\"}","trial_type":"survey-text","trial_index":30,"time_elapsed":132091,"internal_node_id":"0.0-14.2-0.2","turk_code":"qz15gxsuhdnt"},{"rt":2380.399999976158,"responses":"{\"large\":\"large\"}","trial_type":"survey-text","trial_index":31,"time_elapsed":134475,"internal_node_id":"0.0-14.3-0.3","turk_code":"qz15gxsuhdnt"},{"rt":1817.800000011921,"responses":"{\"large\":\"large\"}","trial_type":"survey-text","trial_index":32,"time_elapsed":136297,"internal_node_id":"0.0-14.4-0.4","turk_code":"qz15gxsuhdnt"},{"trial_type":"survey-text","trial_index":33,"time_elapsed":154003,"internal_node_id":"0.0-14.5-0.5","turk_code":"qz15gxsuhdnt"},{"rt":1190.3999999761581,"stimulus":"The round has finished!<br><br> Please continue to list zoo animals as quickly as possible, pressing enter after each response. <br><br> Press the space bar when you're ready to continue.","key_press":32,"trial_type":"html-keyboard-response","trial_index":34,"time_elapsed":155196,"internal_node_id":"0.0-15.0","turk_code":"qz15gxsuhdnt"},{"trial_type":"call-function","trial_index":35,"time_elapsed":155198,"internal_node_id":"0.0-16.0","turk_code":"qz15gxsuhdnt"},{"rt":3474.800000011921,"responses":"{\"has good hearing\":\"dog\"}","trial_type":"survey-text","trial_index":36,"time_elapsed":158676,"internal_node_id":"0.0-17.0-0.0","turk_code":"qz15gxsuhdnt"},{"rt":17280.399999976158,"responses":"{\"has good hearing\":\"elephant\"}","trial_type":"survey-text","trial_index":37,"time_elapsed":175960,"internal_node_id":"0.0-17.1-0.1","turk_code":"qz15gxsuhdnt"},{"trial_type":"survey-text","trial_index":38,"time_elapsed":185201,"internal_node_id":"0.0-17.2-0.2","turk_code":"qz15gxsuhdnt"},{"rt":1128.3999999761581,"stimulus":"The round has finished!<br><br> Please continue to list zoo animals as quickly as possible, pressing enter after each response. <br><br> Press the space bar when you're ready to continue.","key_press":32,"trial_type":"html-keyboard-response","trial_index":39,"time_elapsed":186332,"internal_node_id":"0.0-18.0","turk_code":"qz15gxsuhdnt"},{"trial_type":"call-function","trial_index":40,"time_elapsed":186334,"internal_node_id":"0.0-19.0","turk_code":"qz15gxsuhdnt"},{"rt":3161.7000000476837,"responses":"{\"dangerous\":\"lion\"}","trial_type":"survey-text","trial_index":41,"time_elapsed":189499,"internal_node_id":"0.0-20.0-0.0","turk_code":"qz15gxsuhdnt"},{"rt":966.6000000238419,"responses":"{\"dangerous\":\"tiger\"}","trial_type":"survey-text","trial_index":42,"time_elapsed":190471,"internal_node_id":"0.0-20.1-0.1","turk_code":"qz15gxsuhdnt"},{"rt":1797.5999999642372,"responses":"{\"dangerous\":\"shark\"}","trial_type":"survey-text","trial_index":43,"time_elapsed":192271,"internal_node_id":"0.0-20.2-0.2","turk_code":"qz15gxsuhdnt"},{"rt":1654.300000011921,"responses":"{\"dangerous\":\"dangerous\"}","trial_type":"survey-text","trial_index":44,"time_elapsed":193929,"internal_node_id":"0.0-20.3-0.3","turk_code":"qz15gxsuhdnt"},{"rt":1828.5,"responses":"{\"dangerous\":\"dangerous\"}","trial_type":"survey-text","trial_index":45,"time_elapsed":195762,"internal_node_id":"0.0-20.4-0.4","turk_code":"qz15gxsuhdnt"},{"trial_type":"survey-text","trial_index":46,"time_elapsed":216338,"internal_node_id":"0.0-20.5-0.5","turk_code":"qz15gxsuhdnt"},{"rt":970.4000000357628,"stimulus":"The round has finished!<br><br> Please continue to list zoo animals as quickly as possible, pressing enter after each response. <br><br> Press the space bar when you're ready to continue.","key_press":32,"trial_type":"html-keyboard-response","trial_index":47,"time_elapsed":217311,"internal_node_id":"0.0-21.0","turk_code":"qz15gxsuhdnt"},{"trial_type":"call-function","trial_index":48,"time_elapsed":217312,"internal_node_id":"0.0-22.0","turk_code":"qz15gxsuhdnt"},{"rt":2464.399999976158,"responses":"{\"sleeps very little\":\"bat\"}","trial_type":"survey-text","trial_index":49,"time_elapsed":219779,"internal_node_id":"0.0-23.0-0.0","turk_code":"qz15gxsuhdnt"},{"rt":6671.800000011921,"responses":"{\"sleeps very little\":\"giraffe\"}","trial_type":"survey-text","trial_index":50,"time_elapsed":226455,"internal_node_id":"0.0-23.1-0.1","turk_code":"qz15gxsuhdnt"},{"rt":3106.2000000476837,"responses":"{\"sleeps very little\":\"sleeps\"}","trial_type":"survey-text","trial_index":51,"time_elapsed":229565,"internal_node_id":"0.0-23.2-0.2","turk_code":"qz15gxsuhdnt"},{"rt":1677.699999988079,"responses":"{\"sleeps very little\":\"sleep\"}","trial_type":"survey-text","trial_index":52,"time_elapsed":231246,"internal_node_id":"0.0-23.3-0.3","turk_code":"qz15gxsuhdnt"},{"trial_type":"survey-text","trial_index":53,"time_elapsed":247314,"internal_node_id":"0.0-23.4-0.4","turk_code":"qz15gxsuhdnt"},{"rt":1843.5,"stimulus":"The round has finished!<br><br> Please continue to list zoo animals as quickly as possible, pressing enter after each response. <br><br> Press the space bar when you're ready to continue.","key_press":32,"trial_type":"html-keyboard-response","trial_index":54,"time_elapsed":249160,"internal_node_id":"0.0-24.0","turk_code":"qz15gxsuhdnt"},{"trial_type":"call-function","trial_index":55,"time_elapsed":249162,"internal_node_id":"0.0-25.0","turk_code":"qz15gxsuhdnt"},{"rt":4306.600000023842,"responses":"{\"lifespan\":\"tortoise\"}","trial_type":"survey-text","trial_index":56,"time_elapsed":253475,"internal_node_id":"0.0-26.0-0.0","turk_code":"qz15gxsuhdnt"},{"rt":2145.600000023842,"responses":"{\"lifespan\":\"lifespan\"}","trial_type":"survey-text","trial_index":57,"time_elapsed":255625,"internal_node_id":"0.0-26.1-0.1","turk_code":"qz15gxsuhdnt"},{"trial_type":"survey-text","trial_index":58,"time_elapsed":279164,"internal_node_id":"0.0-26.2-0.2","turk_code":"qz15gxsuhdnt"},{"rt":1328.8999999761581,"stimulus":"The round has finished!<br><br> Please continue to list zoo animals as quickly as possible, pressing enter after each response. <br><br> Press the space bar when you're ready to continue.","key_press":32,"trial_type":"html-keyboard-response","trial_index":59,"time_elapsed":280496,"internal_node_id":"0.0-27.0","turk_code":"qz15gxsuhdnt"},{"trial_type":"call-function","trial_index":60,"time_elapsed":280497,"internal_node_id":"0.0-28.0","turk_code":"qz15gxsuhdnt"},{"rt":4043.5,"responses":"{\"striking\":\"flamingo\"}","trial_type":"survey-text","trial_index":61,"time_elapsed":284544,"internal_node_id":"0.0-29.0-0.0","turk_code":"qz15gxsuhdnt"},{"rt":1656.199999988079,"responses":"{\"striking\":\"zebra\"}","trial_type":"survey-text","trial_index":62,"time_elapsed":286204,"internal_node_id":"0.0-29.1-0.1","turk_code":"qz15gxsuhdnt"},{"rt":1957.0999999642372,"responses":"{\"striking\":\"striking\"}","trial_type":"survey-text","trial_index":63,"time_elapsed":288165,"internal_node_id":"0.0-29.2-0.2","turk_code":"qz15gxsuhdnt"},{"rt":2447.7999999523163,"responses":"{\"striking\":\"striking\"}","trial_type":"survey-text","trial_index":64,"time_elapsed":290616,"internal_node_id":"0.0-29.3-0.3","turk_code":"qz15gxsuhdnt"},{"trial_type":"survey-text","trial_index":65,"time_elapsed":310500,"internal_node_id":"0.0-29.4-0.4","turk_code":"qz15gxsuhdnt"},{"rt":1195.3999999761581,"stimulus":"The round has finished!<br><br> Please continue to list zoo animals as quickly as possible, pressing enter after each response. <br><br> Press the space bar when you're ready to continue.","key_press":32,"trial_type":"html-keyboard-response","trial_index":66,"time_elapsed":311699,"internal_node_id":"0.0-30.0","turk_code":"qz15gxsuhdnt"},{"trial_type":"call-function","trial_index":67,"time_elapsed":311701,"internal_node_id":"0.0-31.0","turk_code":"qz15gxsuhdnt"},{"rt":6827.300000011921,"responses":"{\"has long hair\":\"lion\"}","trial_type":"survey-text","trial_index":68,"time_elapsed":318531,"internal_node_id":"0.0-32.0-0.0","turk_code":"qz15gxsuhdnt"},{"trial_type":"survey-text","trial_index":69,"time_elapsed":341702,"internal_node_id":"0.0-32.1-0.1","turk_code":"qz15gxsuhdnt"},{"rt":3720.600000023842,"stimulus":"The round has finished! Press the space bar when you're ready to continue.","key_press":32,"trial_type":"html-keyboard-response","trial_index":70,"time_elapsed":345427,"internal_node_id":"0.0-33.0","turk_code":"qz15gxsuhdnt"},{"rt":16313.100000023842,"responses":"{\"Q0\":\"21\",\"Q1\":\"english\",\"Q2\":\"amercian\",\"Q3\":\"usa\"}","trial_type":"survey-text","trial_index":71,"time_elapsed":361746,"internal_node_id":"0.0-34.0","turk_code":"qz15gxsuhdnt"},{"rt":6151.400000035763,"responses":"{\"Q0\":\"Female\",\"Q1\":\"Yes\",\"Q2\":\"Some college or university\"}","question_order":"[0,1,2]","trial_type":"survey-multi-choice","trial_index":72,"time_elapsed":367902,"internal_node_id":"0.0-35.0","turk_code":"qz15gxsuhdnt"}]}