{"data":[{"rt":4982.099999964237,"stimulus":"<DIV align='left'><div>&nbsp;</div><div>Please consider this information carefully before deciding whether to participate in this research.</div><div>&nbsp;</div><div>The purpose of this research is to examine which factors influence social judgment and decision-</div><div>making. You will be asked to make judgements about individuals and actions in social scenarios.</div><div>We are simply interested in your judgement. The study will take less than 1 hour to complete,</div><div>and you will receive less than $20 on Amazon Mechanical Turk. Your compensation and time</div><div>commitment are specified in the study description. There are no anticipated risks associated with</div><div>participating in this study. The effects of participating should be comparable to those you would</div><div>ordinarily experience from viewing a computer monitor and using a mouse or keyboard for a</div><div>similar amount of time. At the end of the study, we will provide an explanation of the questions</div><div>that motivate this line of research and will describe the potential implications.</div><div>&nbsp;</div><div>Your participation in this study is completely voluntary and you may refuse to participate or you</div><div>may choose to withdraw at any time without penalty or loss of benefits to you which are</div><div>otherwise entitled. Your participation in this study will remain confidential. No personally</div><div>identifiable information will be associated with your data. Also, all analyses of the data will be</div><div>averaged across all the participants, so your individual responses will never be specifically</div><div>analyzed.</div><div>&nbsp;</div><div>If you have questions or concerns about your participation or payment, or want to request a</div><div>summary of research findings, please contact Dr. Jonathan Phillips at</div><div><a href=mailto:Jonathan.S.Phillips@dartmouth.edu>Jonathan.S.Phillips@dartmouth.edu</a>.</div><div>&nbsp;</div><div>Please save a copy of this form for your records.</div><div>&nbsp;</div></DIV><div>Agreement:</div><DIV align='left'><div>The nature and purpose of this research have been sufficiently explained and I agree to</div><div>participate in this study. I understand that I am free to withdraw at any time without incurring</div><div>any penalty. Please consent by clicking the button below to continue. Otherwise, please exit the</div><div>study at any time.</div><div>&nbsp;</div></DIV>","button_pressed":"0","trial_type":"html-button-response","trial_index":0,"time_elapsed":4984,"internal_node_id":"0.0-0.0","turk_code":"ckmp4vznh3po","descriptors":["dangerous","has large feet relative to its body size","striking","has good hearing","quiet","large","sleeps very little","lifespan","has long hair","cool"]},{"rt":683.5,"stimulus":"<div class='center-content'><br><br><br><br>Welcome to the HIT. Press any key to begin.","key_press":32,"trial_type":"html-keyboard-response","trial_index":1,"time_elapsed":5668,"internal_node_id":"0.0-1.0","turk_code":"ckmp4vznh3po","descriptors":["dangerous","has large feet relative to its body size","striking","has good hearing","quiet","large","sleeps very little","lifespan","has long hair","cool"]},{"rt":1415.699999988079,"responses":"{\"subject_id\":\"id\"}","trial_type":"survey-text","trial_index":2,"time_elapsed":7087,"internal_node_id":"0.0-2.0","turk_code":"ckmp4vznh3po","descriptors":["dangerous","has large feet relative to its body size","striking","has good hearing","quiet","large","sleeps very little","lifespan","has long hair","cool"]},{"rt":1759.1000000238419,"stimulus":"In this experiment, you will be asked to list zoo animals that fit a certain description.<br><br> You will have 30 seconds per round to give answers, after which the round will automatically end. Please work as fast as you can, listing zoo animals that you think fit the description as quickly as possible.<br><br> Type one zoo animal per text box, and then press enter.<br><br>Press any key to begin.","key_press":32,"trial_type":"html-keyboard-response","trial_index":3,"time_elapsed":8847,"internal_node_id":"0.0-3.0","turk_code":"ckmp4vznh3po","descriptors":["dangerous","has large feet relative to its body size","striking","has good hearing","quiet","large","sleeps very little","lifespan","has long hair","cool"]},{"trial_type":"call-function","trial_index":4,"time_elapsed":8848,"internal_node_id":"0.0-4.0","turk_code":"ckmp4vznh3po","descriptors":["dangerous","has large feet relative to its body size","striking","has good hearing","quiet","large","sleeps very little","lifespan","has long hair","cool"]},{"rt":3009.699999988079,"responses":"{\"dangerous\":\"dangerous\"}","trial_type":"survey-text","trial_index":5,"time_elapsed":11860,"internal_node_id":"0.0-5.0-0.0","turk_code":"ckmp4vznh3po","descriptors":["dangerous","has large feet relative to its body size","striking","has good hearing","quiet","large","sleeps very little","lifespan","has long hair","cool"]},{"trial_type":"survey-text","trial_index":6,"time_elapsed":38849,"internal_node_id":"0.0-5.1-0.1","turk_code":"ckmp4vznh3po","descriptors":["dangerous","has large feet relative to its body size","striking","has good hearing","quiet","large","sleeps very little","lifespan","has long hair","cool"]},{"rt":2505.699999988079,"stimulus":"The round has finished!<br><br> Please continue to list zoo animals as quickly as possible, pressing enter after each response. <br><br> Click 'Continue' when you're ready for the next round. <br><br>","button_pressed":"0","trial_type":"html-button-response","trial_index":7,"time_elapsed":41356,"internal_node_id":"0.0-6.0","turk_code":"ckmp4vznh3po","descriptors":["dangerous","has large feet relative to its body size","striking","has good hearing","quiet","large","sleeps very little","lifespan","has long hair","cool"]},{"trial_type":"call-function","trial_index":8,"time_elapsed":41357,"internal_node_id":"0.0-7.0","turk_code":"ckmp4vznh3po","descriptors":["dangerous","has large feet relative to its body size","striking","has good hearing","quiet","large","sleeps very little","lifespan","has long hair","cool"]},{"trial_type":"survey-text","trial_index":9,"time_elapsed":71361,"internal_node_id":"0.0-8.0-0.0","turk_code":"ckmp4vznh3po","descriptors":["dangerous","has large feet relative to its body size","striking","has good hearing","quiet","large","sleeps very little","lifespan","has long hair","cool"]},{"rt":1600.300000011921,"stimulus":"The round has finished!<br><br> Please continue to list zoo animals as quickly as possible, pressing enter after each response. <br><br> Click 'Continue' when you're ready for the next round. <br><br>","button_pressed":"0","trial_type":"html-button-response","trial_index":10,"time_elapsed":72962,"internal_node_id":"0.0-9.0","turk_code":"ckmp4vznh3po","descriptors":["dangerous","has large feet relative to its body size","striking","has good hearing","quiet","large","sleeps very little","lifespan","has long hair","cool"]},{"trial_type":"call-function","trial_index":11,"time_elapsed":72963,"internal_node_id":"0.0-10.0","turk_code":"ckmp4vznh3po","descriptors":["dangerous","has large feet relative to its body size","striking","has good hearing","quiet","large","sleeps very little","lifespan","has long hair","cool"]},{"rt":8762.700000047684,"responses":"{\"striking\":\"striking (after large feet)\"}","trial_type":"survey-text","trial_index":12,"time_elapsed":81728,"internal_node_id":"0.0-11.0-0.0","turk_code":"ckmp4vznh3po","descriptors":["dangerous","has large feet relative to its body size","striking","has good hearing","quiet","large","sleeps very little","lifespan","has long hair","cool"]},{"rt":3212.600000023842,"responses":"{\"striking\":\"striking\"}","trial_type":"survey-text","trial_index":13,"time_elapsed":84943,"internal_node_id":"0.0-11.1-0.1","turk_code":"ckmp4vznh3po","descriptors":["dangerous","has large feet relative to its body size","striking","has good hearing","quiet","large","sleeps very little","lifespan","has long hair","cool"]},{"trial_type":"survey-text","trial_index":14,"time_elapsed":102966,"internal_node_id":"0.0-11.2-0.2","turk_code":"ckmp4vznh3po","descriptors":["dangerous","has large feet relative to its body size","striking","has good hearing","quiet","large","sleeps very little","lifespan","has long hair","cool"]},{"rt":1905.8999999761581,"stimulus":"The round has finished!<br><br> Please continue to list zoo animals as quickly as possible, pressing enter after each response. <br><br> Click 'Continue' when you're ready for the next round. <br><br>","button_pressed":"0","trial_type":"html-button-response","trial_index":15,"time_elapsed":104874,"internal_node_id":"0.0-12.0","turk_code":"ckmp4vznh3po","descriptors":["dangerous","has large feet relative to its body size","striking","has good hearing","quiet","large","sleeps very little","lifespan","has long hair","cool"]},{"trial_type":"call-function","trial_index":16,"time_elapsed":104874,"internal_node_id":"0.0-13.0","turk_code":"ckmp4vznh3po","descriptors":["dangerous","has large feet relative to its body size","striking","has good hearing","quiet","large","sleeps very little","lifespan","has long hair","cool"]},{"trial_type":"survey-text","trial_index":17,"time_elapsed":134876,"internal_node_id":"0.0-14.0-0.0","turk_code":"ckmp4vznh3po","descriptors":["dangerous","has large feet relative to its body size","striking","has good hearing","quiet","large","sleeps very little","lifespan","has long hair","cool"]},{"rt":4549.300000011921,"stimulus":"The round has finished!<br><br> Please continue to list zoo animals as quickly as possible, pressing enter after each response. <br><br> Click 'Continue' when you're ready for the next round. <br><br>","button_pressed":"0","trial_type":"html-button-response","trial_index":18,"time_elapsed":139426,"internal_node_id":"0.0-15.0","turk_code":"ckmp4vznh3po","descriptors":["dangerous","has large feet relative to its body size","striking","has good hearing","quiet","large","sleeps very little","lifespan","has long hair","cool"]},{"trial_type":"call-function","trial_index":19,"time_elapsed":139427,"internal_node_id":"0.0-16.0","turk_code":"ckmp4vznh3po","descriptors":["dangerous","has large feet relative to its body size","striking","has good hearing","quiet","large","sleeps very little","lifespan","has long hair","cool"]},{"rt":1916.0999999642372,"responses":"{\"quiet\":\"quiet\"}","trial_type":"survey-text","trial_index":20,"time_elapsed":141345,"internal_node_id":"0.0-17.0-0.0","turk_code":"ckmp4vznh3po","descriptors":["dangerous","has large feet relative to its body size","striking","has good hearing","quiet","large","sleeps very little","lifespan","has long hair","cool"]},{"rt":3622.600000023842,"responses":"{\"quiet\":\"last one was good hearing\"}","trial_type":"survey-text","trial_index":21,"time_elapsed":144970,"internal_node_id":"0.0-17.1-0.1","turk_code":"ckmp4vznh3po","descriptors":["dangerous","has large feet relative to its body size","striking","has good hearing","quiet","large","sleeps very little","lifespan","has long hair","cool"]},{"trial_type":"survey-text","trial_index":22,"time_elapsed":169431,"internal_node_id":"0.0-17.2-0.2","turk_code":"ckmp4vznh3po","descriptors":["dangerous","has large feet relative to its body size","striking","has good hearing","quiet","large","sleeps very little","lifespan","has long hair","cool"]},{"rt":1729.1000000238419,"stimulus":"The round has finished!<br><br> Please continue to list zoo animals as quickly as possible, pressing enter after each response. <br><br> Click 'Continue' when you're ready for the next round. <br><br>","button_pressed":"0","trial_type":"html-button-response","trial_index":23,"time_elapsed":171161,"internal_node_id":"0.0-18.0","turk_code":"ckmp4vznh3po","descriptors":["dangerous","has large feet relative to its body size","striking","has good hearing","quiet","large","sleeps very little","lifespan","has long hair","cool"]},{"trial_type":"call-function","trial_index":24,"time_elapsed":171162,"internal_node_id":"0.0-19.0","turk_code":"ckmp4vznh3po","descriptors":["dangerous","has large feet relative to its body size","striking","has good hearing","quiet","large","sleeps very little","lifespan","has long hair","cool"]},{"trial_type":"survey-text","trial_index":25,"time_elapsed":201167,"internal_node_id":"0.0-20.0-0.0","turk_code":"ckmp4vznh3po","descriptors":["dangerous","has large feet relative to its body size","striking","has good hearing","quiet","large","sleeps very little","lifespan","has long hair","cool"]},{"rt":39972.5,"stimulus":"The round has finished!<br><br> Please continue to list zoo animals as quickly as possible, pressing enter after each response. <br><br> Click 'Continue' when you're ready for the next round. <br><br>","button_pressed":"0","trial_type":"html-button-response","trial_index":26,"time_elapsed":241143,"internal_node_id":"0.0-21.0","turk_code":"ckmp4vznh3po","descriptors":["dangerous","has large feet relative to its body size","striking","has good hearing","quiet","large","sleeps very little","lifespan","has long hair","cool"]},{"trial_type":"call-function","trial_index":27,"time_elapsed":241144,"internal_node_id":"0.0-22.0","turk_code":"ckmp4vznh3po","descriptors":["dangerous","has large feet relative to its body size","striking","has good hearing","quiet","large","sleeps very little","lifespan","has long hair","cool"]},{"rt":1641.300000011921,"responses":"{\"sleeps very little\":\"sleeps\"}","trial_type":"survey-text","trial_index":28,"time_elapsed":242787,"internal_node_id":"0.0-23.0-0.0","turk_code":"ckmp4vznh3po","descriptors":["dangerous","has large feet relative to its body size","striking","has good hearing","quiet","large","sleeps very little","lifespan","has long hair","cool"]},{"trial_type":"survey-text","trial_index":29,"time_elapsed":271148,"internal_node_id":"0.0-23.1-0.1","turk_code":"ckmp4vznh3po","descriptors":["dangerous","has large feet relative to its body size","striking","has good hearing","quiet","large","sleeps very little","lifespan","has long hair","cool"]},{"rt":70384.80000001192,"stimulus":"The round has finished!<br><br> Please continue to list zoo animals as quickly as possible, pressing enter after each response. <br><br> Click 'Continue' when you're ready for the next round. <br><br>","button_pressed":"0","trial_type":"html-button-response","trial_index":30,"time_elapsed":341535,"internal_node_id":"0.0-24.0","turk_code":"ckmp4vznh3po","descriptors":["dangerous","has large feet relative to its body size","striking","has good hearing","quiet","large","sleeps very little","lifespan","has long hair","cool"]},{"trial_type":"call-function","trial_index":31,"time_elapsed":341536,"internal_node_id":"0.0-25.0","turk_code":"ckmp4vznh3po","descriptors":["dangerous","has large feet relative to its body size","striking","has good hearing","quiet","large","sleeps very little","lifespan","has long hair","cool"]},{"trial_type":"survey-text","trial_index":32,"time_elapsed":372191,"internal_node_id":"0.0-26.0-0.0","turk_code":"ckmp4vznh3po","descriptors":["dangerous","has large feet relative to its body size","striking","has good hearing","quiet","large","sleeps very little","lifespan","has long hair","cool"]},{"rt":16004.5,"stimulus":"The round has finished!<br><br> Please continue to list zoo animals as quickly as possible, pressing enter after each response. <br><br> Click 'Continue' when you're ready for the next round. <br><br>","button_pressed":"0","trial_type":"html-button-response","trial_index":33,"time_elapsed":388198,"internal_node_id":"0.0-27.0","turk_code":"ckmp4vznh3po","descriptors":["dangerous","has large feet relative to its body size","striking","has good hearing","quiet","large","sleeps very little","lifespan","has long hair","cool"]},{"trial_type":"call-function","trial_index":34,"time_elapsed":388200,"internal_node_id":"0.0-28.0","turk_code":"ckmp4vznh3po","descriptors":["dangerous","has large feet relative to its body size","striking","has good hearing","quiet","large","sleeps very little","lifespan","has long hair","cool"]},{"rt":2614.800000011921,"responses":"{\"has long hair\":\"long hair \"}","trial_type":"survey-text","trial_index":35,"time_elapsed":390824,"internal_node_id":"0.0-29.0-0.0","turk_code":"ckmp4vznh3po","descriptors":["dangerous","has large feet relative to its body size","striking","has good hearing","quiet","large","sleeps very little","lifespan","has long hair","cool"]},{"rt":5819.899999976158,"responses":"{\"has long hair\":\"lifespan was last\"}","trial_type":"survey-text","trial_index":36,"time_elapsed":396647,"internal_node_id":"0.0-29.1-0.1","turk_code":"ckmp4vznh3po","descriptors":["dangerous","has large feet relative to its body size","striking","has good hearing","quiet","large","sleeps very little","lifespan","has long hair","cool"]},{"trial_type":"survey-text","trial_index":37,"time_elapsed":418200,"internal_node_id":"0.0-29.2-0.2","turk_code":"ckmp4vznh3po","descriptors":["dangerous","has large feet relative to its body size","striking","has good hearing","quiet","large","sleeps very little","lifespan","has long hair","cool"]},{"rt":8259.199999988079,"stimulus":"The round has finished!<br><br> Please continue to list zoo animals as quickly as possible, pressing enter after each response. <br><br> Click 'Continue' when you're ready for the next round. <br><br>","button_pressed":"0","trial_type":"html-button-response","trial_index":38,"time_elapsed":426463,"internal_node_id":"0.0-30.0","turk_code":"ckmp4vznh3po","descriptors":["dangerous","has large feet relative to its body size","striking","has good hearing","quiet","large","sleeps very little","lifespan","has long hair","cool"]},{"trial_type":"call-function","trial_index":39,"time_elapsed":426465,"internal_node_id":"0.0-31.0","turk_code":"ckmp4vznh3po","descriptors":["dangerous","has large feet relative to its body size","striking","has good hearing","quiet","large","sleeps very little","lifespan","has long hair","cool"]},{"trial_type":"survey-text","trial_index":40,"time_elapsed":456466,"internal_node_id":"0.0-32.0-0.0","turk_code":"ckmp4vznh3po","descriptors":["dangerous","has large feet relative to its body size","striking","has good hearing","quiet","large","sleeps very little","lifespan","has long hair","cool"]},{"rt":11593.899999976158,"stimulus":"The round has finished! Click 'Continue' to continue with the study. <br><br>","button_pressed":"0","trial_type":"html-button-response","trial_index":41,"time_elapsed":468062,"internal_node_id":"0.0-33.0","turk_code":"ckmp4vznh3po","descriptors":["dangerous","has large feet relative to its body size","striking","has good hearing","quiet","large","sleeps very little","lifespan","has long hair","cool"]},{"rt":8713.100000023842,"responses":"{\"Q0\":\"21\",\"Q1\":\"english\",\"Q2\":\"american\",\"Q3\":\"usa\"}","trial_type":"survey-text","trial_index":42,"time_elapsed":476781,"internal_node_id":"0.0-34.0","turk_code":"ckmp4vznh3po","descriptors":["dangerous","has large feet relative to its body size","striking","has good hearing","quiet","large","sleeps very little","lifespan","has long hair","cool"]},{"rt":4838.700000047684,"responses":"{\"Q0\":\"Female\",\"Q1\":\"Yes\",\"Q2\":\"Some college or university\"}","question_order":"[0,1,2]","trial_type":"survey-multi-choice","trial_index":43,"time_elapsed":481623,"internal_node_id":"0.0-35.0","turk_code":"ckmp4vznh3po","descriptors":["dangerous","has large feet relative to its body size","striking","has good hearing","quiet","large","sleeps very little","lifespan","has long hair","cool"]}]}